Folder: tga-spectrum/src/from/parser/__tests__/data/dsc

Note: README.md
# tga-spectrum

[![NPM version][npm-image]][npm-url]
[![Test coverage][codecov-image]][codecov-url]
[![npm download][download-image]][download-url]

Parse TGA files from

- Perkin Elmer `txt` and `csv` files
- TA instruments `txt` and `xls` files


## Installation

`$ npm install --save tga-spectrum`

## Usage

```js
import TGASpectrum from 'tga-spectrum';

let analysis = TGASpectrum.fromJcamp(jcamp);
```

## [API Documentation](https://cheminfo.github.io/tga-spectrum/)

## License

[MIT](./LICENSE)

[npm-image]: https://img.shields.io/npm/v/tga-spectrum.svg?style=flat-square
[npm-url]: https://www.npmjs.com/package/tga-spectrum
[codecov-image]: https://img.shields.io/codecov/c/github/cheminfo/tga-spectrum.svg?style=flat-square
[codecov-url]: https://codecov.io/gh/cheminfo/tga-spectrum
[download-image]: https://img.shields.io/npm/dm/tga-spectrum.svg?style=flat-square
[download-url]: https://www.npmjs.com/package/tga-spectrum

File: PerkinElmerCSV.txt
Time,Unsubtracted Heat Flow,Baseline Heat Flow,Program Temperature,Sample Temperature,Approx. Gas Flow,Heat Flow Calibration,Uncorrected Heat Flow,
0.000000,-16.1054,0.000000,-15,-15.05,0.000000,0.896910,-16.1054,
0.091062,-15.1337,0.000000,-15,-15.055,0.000000,0.896910,-15.1337,
0.182125,-14.789,0.000000,-15,-15.05,0.000000,0.896910,-14.789,
0.273187,-14.6695,0.000000,-15,-15.055,0.000000,0.896910,-14.6695,
0.364250,-14.6281,0.000000,-15,-15.055,0.000000,0.896910,-14.6281,
0.455312,-14.6129,0.000000,-15,-15.05,0.000000,0.896910,-14.6129,
0.546374,-14.6065,0.000000,-15,-15.055,0.000000,0.896910,-14.6065,
0.637437,-14.604,0.000000,-15,-15.055,0.000000,0.896910,-14.604,
0.728499,-14.6009,0.000000,-15,-15.05,0.000000,0.896910,-14.6009,
0.819562,-14.5984,0.000000,-15,-15.05,0.000000,0.896910,-14.5984,
0.910624,-14.596,0.000000,-15,-15.055,0.000000,0.896910,-14.596,
1.001686,-14.5943,0.000000,-15,-15.05,0.000000,0.896910,-14.5943,
1.083804,-15.1856,0.000000,-14.271,-14.646,0.000000,0.896910,-15.1856,
1.164804,-15.7169,0.000000,-13.463,-13.834,0.000000,0.896910,-15.7169,
1.245804,-13.9228,0.000000,-12.655,-13.03,0.000000,0.896910,-13.9228,
1.326804,-13.1114,0.000000,-11.846,-12.225,0.000000,0.896910,-13.1114,
1.407804,-12.7644,0.000000,-11.038,-11.417,0.000000,0.896910,-12.7644,
1.488804,-12.6133,0.000000,-10.23,-10.609,0.000000,0.896910,-12.6133,
1.569804,-12.5438,0.000000,-9.421000,-9.792000,0.000000,0.896910,-12.5438,
1.650804,-12.5044,0.000000,-8.613000,-8.984000,0.000000,0.896910,-12.5044,
1.731804,-12.474,0.000000,-7.805000,-8.175000,0.000000,0.896910,-12.474,
1.812804,-12.4471,0.000000,-6.996000,-7.363000,0.000000,0.896910,-12.4471,
1.893804,-12.4203,0.000000,-6.184000,-6.559000,0.000000,0.896910,-12.4203,
1.974804,-12.3945,0.000000,-5.375000,-5.746000,0.000000,0.896910,-12.3945,
2.055804,-12.371,0.000000,-4.567000,-4.934000,0.000000,0.896910,-12.371,
2.136804,-12.3426,0.000000,-3.759000,-4.121000,0.000000,0.896910,-12.3426,
2.217804,-12.3157,0.000000,-2.950000,-3.313000,0.000000,0.896910,-12.3157,
2.298804,-12.2861,0.000000,-2.142000,-2.500000,0.000000,0.896910,-12.2861,
2.379804,-12.2565,0.000000,-1.334000,-1.692000,0.000000,0.896910,-12.2565,
2.460804,-12.2278,0.000000,-0.525000,-0.880000,0.000000,0.896910,-12.2278,
2.541804,-12.1965,0.000000,0.283000,-0.067000,0.000000,0.896910,-12.1965,
2.622804,-12.1756,0.000000,1.091000,0.741000,0.000000,0.896910,-12.1756,
2.703804,-12.1375,0.000000,1.900000,1.550000,0.000000,0.896910,-12.1375,
2.784804,-12.1129,0.000000,2.708000,2.366000,0.000000,0.896910,-12.1129,
2.865804,-12.0837,0.000000,3.520000,3.175000,0.000000,0.896910,-12.0837,
2.946804,-12.0553,0.000000,4.329000,3.987000,0.000000,0.896910,-12.0553,
3.027804,-12.0278,0.000000,5.137000,4.795000,0.000000,0.896910,-12.0278,
3.108804,-11.9987,0.000000,5.945000,5.608000,0.000000,0.896910,-11.9987,
3.189804,-11.972,0.000000,6.754000,6.420000,0.000000,0.896910,-11.972,
3.270804,-11.9391,0.000000,7.562000,7.233000,0.000000,0.896910,-11.9391,
3.351804,-11.9109,0.000000,8.370000,8.045000,0.000000,0.896910,-11.9109,
3.432804,-11.8776,0.000000,9.179000,8.854000,0.000000,0.896910,-11.8776,
3.513804,-11.8493,0.000000,9.987000,9.666000,0.000000,0.896910,-11.8493,
3.594804,-11.8184,0.000000,10.795,10.475,0.000000,0.896910,-11.8184,
3.675804,-11.7882,0.000000,11.604,11.291,0.000000,0.896910,-11.7882,
3.756804,-11.7595,0.000000,12.412,12.1,0.000000,0.896910,-11.7595,
3.837804,-11.7252,0.000000,13.225,12.908,0.000000,0.896910,-11.7252,
3.918804,-11.6954,0.000000,14.033,13.729,0.000000,0.896910,-11.6954,
3.999804,-11.654,0.000000,14.841,14.537,0.000000,0.896910,-11.654,
4.080804,-11.6284,0.000000,15.65,15.341,0.000000,0.896910,-11.6284,
4.161804,-11.6003,0.000000,16.458,16.15,0.000000,0.896910,-11.6003,
4.242804,-11.5687,0.000000,17.266,16.958,0.000000,0.896910,-11.5687,
4.323804,-11.533,0.000000,18.075,17.766,0.000000,0.896910,-11.533,
4.404804,-11.4971,0.000000,18.883,18.575,0.000000,0.896910,-11.4971,
4.485804,-11.4613,0.000000,19.691,19.383,0.000000,0.896910,-11.4613,
4.566804,-11.4262,0.000000,20.5,20.191,0.000000,0.896910,-11.4262,
4.647804,-11.3891,0.000000,21.308,21,0.000000,0.896910,-11.3891,
4.728804,-11.3525,0.000000,22.116,21.804,0.000000,0.896910,-11.3525,
4.809804,-11.3171,0.000000,22.929,22.616,0.000000,0.896910,-11.3171,
4.890804,-11.2794,0.000000,23.737,23.42,0.000000,0.896910,-11.2794,
4.971804,-11.2412,0.000000,24.545,24.229,0.000000,0.896910,-11.2412,
5.052804,-11.2028,0.000000,25.354,25.041,0.000000,0.896910,-11.2028,
5.133804,-11.1617,0.000000,26.162,25.854,0.000000,0.896910,-11.1617,
5.214804,-11.1234,0.000000,26.97,26.658,0.000000,0.896910,-11.1234,
5.295804,-11.0819,0.000000,27.779,27.466,0.000000,0.896910,-11.0819,
5.376804,-11.0418,0.000000,28.587,28.275,0.000000,0.896910,-11.0418,
5.457804,-11.0002,0.000000,29.395,29.083,0.000000,0.896910,-11.0002,
5.538804,-10.9565,0.000000,30.204,29.891,0.000000,0.896910,-10.9565,
5.619804,-10.9213,0.000000,31.012,30.704,0.000000,0.896910,-10.9213,
5.700804,-10.8836,0.000000,31.82,31.512,0.000000,0.896910,-10.8836,
5.781804,-10.8411,0.000000,32.629,32.316,0.000000,0.896910,-10.8411,
5.862804,-10.8001,0.000000,33.441,33.129,0.000000,0.896910,-10.8001,
5.943804,-10.7601,0.000000,34.25,33.929,0.000000,0.896910,-10.7601,
6.024804,-10.7206,0.000000,35.058,34.741,0.000000,0.896910,-10.7206,
6.105804,-10.6849,0.000000,35.866,35.554,0.000000,0.896910,-10.6849,
6.186804,-10.6468,0.000000,36.675,36.358,0.000000,0.896910,-10.6468,
6.267804,-10.6126,0.000000,37.483,37.166,0.000000,0.896910,-10.6126,
6.348804,-10.5726,0.000000,38.291,37.979,0.000000,0.896910,-10.5726,
6.429804,-10.5286,0.000000,39.1,38.787,0.000000,0.896910,-10.5286,
6.510804,-10.4754,0.000000,39.908,39.595,0.000000,0.896910,-10.4754,
6.591804,-10.4229,0.000000,40.716,40.404,0.000000,0.896910,-10.4229,
6.672804,-10.3715,0.000000,41.525,41.212,0.000000,0.896910,-10.3715,
6.753804,-10.3178,0.000000,42.333,42.02,0.000000,0.896910,-10.3178,
6.834804,-10.2666,0.000000,43.145,42.829,0.000000,0.896910,-10.2666,
6.915804,-10.2191,0.000000,43.954,43.637,0.000000,0.896910,-10.2191,
6.996804,-10.1701,0.000000,44.762,44.45,0.000000,0.896910,-10.1701,
7.077804,-10.1172,0.000000,45.57,45.258,0.000000,0.896910,-10.1172,
7.158804,-10.0667,0.000000,46.379,46.066,0.000000,0.896910,-10.0667,
7.239804,-10.0179,0.000000,47.187,46.875,0.000000,0.896910,-10.0179,
7.320804,-9.973106,0.000000,47.995,47.683,0.000000,0.896910,-9.973106,
7.401804,-9.915614,0.000000,48.804,48.495,0.000000,0.896910,-9.915614,
7.482804,-9.862158,0.000000,49.612,49.304,0.000000,0.896910,-9.862158,
7.563804,-9.806729,0.000000,50.42,50.116,0.000000,0.896910,-9.806729,
7.644804,-9.756502,0.000000,51.229,50.925,0.000000,0.896910,-9.756502,
7.725804,-9.702329,0.000000,52.037,51.733,0.000000,0.896910,-9.702329,
7.806804,-9.646272,0.000000,52.85,52.545,0.000000,0.896910,-9.646272,
7.887804,-9.593623,0.000000,53.658,53.35,0.000000,0.896910,-9.593623,
7.968804,-9.536670,0.000000,54.466,54.158,0.000000,0.896910,-9.536670,
8.049804,-9.484021,0.000000,55.275,54.966,0.000000,0.896910,-9.484021,
8.130804,-9.425542,0.000000,56.083,55.779,0.000000,0.896910,-9.425542,
8.211804,-9.371010,0.000000,56.891,56.591,0.000000,0.896910,-9.371010,
8.292804,-9.317106,0.000000,57.7,57.404,0.000000,0.896910,-9.317106,
8.373804,-9.261677,0.000000,58.508,58.208,0.000000,0.896910,-9.261677,
8.454804,-9.209297,0.000000,59.316,59.016,0.000000,0.896910,-9.209297,
8.535804,-9.153330,0.000000,60.125,59.829,0.000000,0.896910,-9.153330,
8.616804,-9.100233,0.000000,60.933,60.633,0.000000,0.896910,-9.100233,
8.697804,-9.044355,0.000000,61.741,61.445,0.000000,0.896910,-9.044355,
8.778804,-8.991707,0.000000,62.55,62.254,0.000000,0.896910,-8.991707,
8.859804,-8.935560,0.000000,63.362,63.062,0.000000,0.896910,-8.935560,
8.940804,-8.886858,0.000000,64.17,63.879,0.000000,0.896910,-8.886858,
9.021804,-8.832146,0.000000,64.979,64.687,0.000000,0.896910,-8.832146,
9.102804,-8.781561,0.000000,65.787,65.495,0.000000,0.896910,-8.781561,
9.183804,-8.718418,0.000000,66.595,66.304,0.000000,0.896910,-8.718418,
9.264804,-8.670344,0.000000,67.404,67.116,0.000000,0.896910,-8.670344,
9.345804,-8.622987,0.000000,68.212,67.925,0.000000,0.896910,-8.622987,
9.426804,-8.578859,0.000000,69.02,68.737,0.000000,0.896910,-8.578859,
9.507804,-8.536435,0.000000,69.829,69.545,0.000000,0.896910,-8.536435,
9.588804,-8.487015,0.000000,70.637,70.354,0.000000,0.896910,-8.487015,
9.669804,-8.464144,0.000000,71.445,71.158,0.000000,0.896910,-8.464144,
9.750804,-8.421631,0.000000,72.254,71.966,0.000000,0.896910,-8.421631,
9.831804,-8.391315,0.000000,73.066,72.775,0.000000,0.896910,-8.391315,
9.912804,-8.359654,0.000000,73.875,73.583,0.000000,0.896910,-8.359654,
9.993804,-8.322612,0.000000,74.683,74.395,0.000000,0.896910,-8.322612,
10.0748,-8.290054,0.000000,75.491,75.2,0.000000,0.896910,-8.290054,
10.1558,-8.265568,0.000000,76.3,76.012,0.000000,0.896910,-8.265568,
10.2368,-8.238302,0.000000,77.108,76.82,0.000000,0.896910,-8.238302,
10.3178,-8.218570,0.000000,77.916,77.625,0.000000,0.896910,-8.218570,
10.3988,-8.182335,0.000000,78.725,78.433,0.000000,0.896910,-8.182335,
10.4798,-8.145920,0.000000,79.533,79.245,0.000000,0.896910,-8.145920,
10.5608,-8.108340,0.000000,80.341,80.054,0.000000,0.896910,-8.108340,
10.6418,-8.071028,0.000000,81.15,80.862,0.000000,0.896910,-8.071028,
10.7228,-8.056767,0.000000,81.958,81.662,0.000000,0.896910,-8.056767,
10.8038,-8.044569,0.000000,82.77,82.475,0.000000,0.896910,-8.044569,
10.8848,-8.022236,0.000000,83.579,83.283,0.000000,0.896910,-8.022236,
10.9658,-7.989768,0.000000,84.387,84.095,0.000000,0.896910,-7.989768,
11.0468,-7.966359,0.000000,85.195,84.904,0.000000,0.896910,-7.966359,
11.1278,-7.935595,0.000000,86.004,85.712,0.000000,0.896910,-7.935595,
11.2088,-7.911199,0.000000,86.812,86.52,0.000000,0.896910,-7.911199,
11.2898,-7.880973,0.000000,87.62,87.325,0.000000,0.896910,-7.880973,
11.3708,-7.869223,0.000000,88.429,88.133,0.000000,0.896910,-7.869223,
11.4518,-7.849581,0.000000,89.237,88.941,0.000000,0.896910,-7.849581,
11.5253,-7.840522,0.000000,89.97,89.675,0.000000,0.896910,-7.840522,