Folder: tga-spectrum/src/from/parser/__tests__/data/tga

Note: README.md
# tga-spectrum

[![NPM version][npm-image]][npm-url]
[![Test coverage][codecov-image]][codecov-url]
[![npm download][download-image]][download-url]

Parse TGA files from

- Perkin Elmer `txt` and `csv` files
- TA instruments `txt` and `xls` files


## Installation

`$ npm install --save tga-spectrum`

## Usage

```js
import TGASpectrum from 'tga-spectrum';

let analysis = TGASpectrum.fromJcamp(jcamp);
```

## [API Documentation](https://cheminfo.github.io/tga-spectrum/)

## License

[MIT](./LICENSE)

[npm-image]: https://img.shields.io/npm/v/tga-spectrum.svg?style=flat-square
[npm-url]: https://www.npmjs.com/package/tga-spectrum
[codecov-image]: https://img.shields.io/codecov/c/github/cheminfo/tga-spectrum.svg?style=flat-square
[codecov-url]: https://codecov.io/gh/cheminfo/tga-spectrum
[download-image]: https://img.shields.io/npm/dm/tga-spectrum.svg?style=flat-square
[download-url]: https://www.npmjs.com/package/tga-spectrum

File: perkinElmer.csv
Time,Unsubtracted Weight,Baseline Weight,Program Temperature,Sample Temperature,Sample Purge Flow,Balance Purge Flow, ,,
0,2.92929,0,30,30,20,40, ,30,100
0.783333,2.927226,0,30,30,20,40, ,30,99.9295
1.566667,2.925419,0,30,30,20,40, ,30,99.8679
2.35,2.923355,0,30,30,20,40, ,30,99.7974
3.133333,2.920774,0,30,30,20,40, ,30,99.7093
3.916667,2.919226,0,30,30,20,40, ,30,99.6564
4.7,2.917419,0,30,30,20,40, ,30,99.5947
5.483333,2.916645,0,32.47,31.91,20,40, ,31.91,99.5683
6.266667,2.912516,0,36.39,35.37,20,40, ,35.37,99.4274
7.05,2.907871,0,40.3,39.08,20,40, ,39.08,99.2688
7.833333,2.902968,0,44.22,42.91,20,40, ,42.91,99.1014
8.616667,2.898065,0,48.14,46.8,20,40, ,46.8,98.934
9.4,2.892129,0,52.05,50.71,20,40, ,50.71,98.7314
10.1833,2.885935,0,55.97,54.63,20,40, ,54.63,98.5199
10.9667,2.87871,0,59.89,58.56,20,40, ,58.56,98.2733
11.75,2.871226,0,63.8,62.49,20,40, ,62.49,98.0178
12.5333,2.862968,0,67.72,66.42,20,40, ,66.42,97.7359
13.3167,2.854452,0,71.64,70.35,20,40, ,70.35,97.4452
14.1,2.845419,0,75.55,74.27,20,40, ,74.27,97.1368
14.8833,2.836129,0,79.47,78.2,20,40, ,78.2,96.8197
15.6667,2.826839,0,83.39,82.11,20,40, ,82.11,96.5025
16.45,2.817806,0,87.3,86.06,20,40, ,86.06,96.1942
17.2333,2.809548,0,91.22,89.97,20,40, ,89.97,95.9123
18.0167,2.80129,0,95.14,93.89,20,40, ,93.89,95.6303
18.8,2.793548,0,99.05,97.81,20,40, ,97.81,95.366
19.5833,2.786323,0,102.97,101.74,20,40, ,101.74,95.1194
20.3667,2.780129,0,106.89,105.66,20,40, ,105.66,94.9079
21.15,2.774194,0,110.8,109.59,20,40, ,109.59,94.7053
21.9333,2.769032,0,114.72,113.5,20,40, ,113.5,94.5291
22.7167,2.764387,0,118.64,117.39,20,40, ,117.39,94.3705
23.5,2.760258,0,122.55,121.34,20,40, ,121.34,94.2296
24.2833,2.756129,0,126.47,125.24,20,40, ,125.24,94.0886
25.0667,2.752516,0,130.39,129.15,20,40, ,129.15,93.9653
25.85,2.748645,0,134.3,133.07,20,40, ,133.07,93.8331
26.6333,2.745032,0,138.22,136.97,20,40, ,136.97,93.7098
27.4167,2.741161,0,142.14,140.88,20,40, ,140.88,93.5777
28.2,2.73729,0,146.05,144.78,20,40, ,144.78,93.4455
28.9833,2.732645,0,149.97,148.68,20,40, ,148.68,93.2869
29.7667,2.728,0,153.89,152.59,20,40, ,152.59,93.1284
30.55,2.723097,0,157.8,156.5,20,40, ,156.5,92.961
31.3333,2.717419,0,161.72,160.43,20,40, ,160.43,92.7672
32.1167,2.711742,0,165.64,164.35,20,40, ,164.35,92.5734
32.9,2.705548,0,169.55,168.27,20,40, ,168.27,92.3619
33.6833,2.699097,0,173.47,172.19,20,40, ,172.19,92.1417
34.4667,2.692387,0,177.39,176.12,20,40, ,176.12,91.9126
35.25,2.685161,0,181.3,180.04,20,40, ,180.04,91.6659
36.0333,2.678452,0,185.22,183.97,20,40, ,183.97,91.4369
36.8167,2.670968,0,189.14,187.88,20,40, ,187.88,91.1814
37.6,2.663742,0,193.05,191.81,20,40, ,191.81,90.9347
38.3833,2.656516,0,196.97,195.74,20,40, ,195.74,90.6881
39.1667,2.64929,0,200.89,199.67,20,40, ,199.67,90.4414
39.95,2.642323,0,204.8,203.59,20,40, ,203.59,90.2035
40.7333,2.635097,0,208.72,207.51,20,40, ,207.51,89.9568
41.5167,2.628387,0,212.64,211.44,20,40, ,211.44,89.7278
42.3,2.622194,0,216.55,215.36,20,40, ,215.36,89.5164
43.0833,2.616,0,220.47,219.29,20,40, ,219.29,89.3049
43.8667,2.610581,0,224.39,223.22,20,40, ,223.22,89.1199
44.65,2.605677,0,228.3,227.13,20,40, ,227.13,88.9525
45.4333,2.600774,0,232.22,231.07,20,40, ,231.07,88.7851
46.2167,2.596645,0,236.14,235,20,40, ,235,88.6442
47,2.59329,0,240.05,238.92,20,40, ,238.92,88.5296
47.7833,2.590194,0,243.97,242.85,20,40, ,242.85,88.424
48.5667,2.587871,0,247.89,246.77,20,40, ,246.77,88.3447
49.35,2.585806,0,251.8,250.7,20,40, ,250.7,88.2742
50.1333,2.584,0,255.72,254.62,20,40, ,254.62,88.2125
50.9167,2.58271,0,259.64,258.54,20,40, ,258.54,88.1685
51.7,2.581419,0,263.55,262.48,20,40, ,262.48,88.1244
52.4833,2.580903,0,267.47,266.4,20,40, ,266.4,88.1068
53.2667,2.580129,0,271.39,270.32,20,40, ,270.32,88.0804
54.05,2.579613,0,275.3,274.24,20,40, ,274.24,88.0627
54.8333,2.578839,0,279.22,278.17,20,40, ,278.17,88.0363
55.6167,2.578581,0,283.14,282.09,20,40, ,282.09,88.0275
56.4,2.578065,0,287.05,286.02,20,40, ,286.02,88.0099
57.1833,2.577548,0,290.97,289.95,20,40, ,289.95,87.9922
57.9667,2.57729,0,294.89,293.86,20,40, ,293.86,87.9834
58.75,2.576774,0,298.8,297.79,20,40, ,297.79,87.9658
59.5333,2.576258,0,302.72,301.71,20,40, ,301.71,87.9482
60.3167,2.575742,0,306.64,305.65,20,40, ,305.65,87.9306
61.1,2.574968,0,310.55,309.57,20,40, ,309.57,87.9042
61.8833,2.57471,0,314.47,313.49,20,40, ,313.49,87.8954
62.6667,2.57471,0,318.39,317.42,20,40, ,317.42,87.8954
63.45,2.574194,0,322.3,321.35,20,40, ,321.35,87.8777
64.2333,2.573935,0,326.22,325.27,20,40, ,325.27,87.8689
65.0167,2.573419,0,330.14,329.2,20,40, ,329.2,87.8513
65.8,2.573161,0,334.05,333.13,20,40, ,333.13,87.8425
66.5833,2.572645,0,337.97,337.05,20,40, ,337.05,87.8249
67.3667,2.572129,0,341.89,340.97,20,40, ,340.97,87.8073
68.15,2.571871,0,345.8,344.9,20,40, ,344.9,87.7984
68.9333,2.571355,0,349.72,348.83,20,40, ,348.83,87.7808
69.7167,2.571355,0,353.64,352.75,20,40, ,352.75,87.7808
70.5,2.570323,0,357.55,356.66,20,40, ,356.66,87.7456
71.2833,2.569806,0,361.47,360.6,20,40, ,360.6,87.7279
72.0667,2.56929,0,365.39,364.52,20,40, ,364.52,87.7103
72.85,2.568516,0,369.3,368.46,20,40, ,368.46,87.6839
73.6333,2.568,0,373.22,372.37,20,40, ,372.37,87.6663
74.4167,2.567226,0,377.14,376.3,20,40, ,376.3,87.6399
75.2,2.566452,0,381.05,380.23,20,40, ,380.23,87.6134
75.9833,2.565419,0,384.97,384.14,20,40, ,384.14,87.5782
76.7667,2.564387,0,388.89,388.07,20,40, ,388.07,87.543
77.55,2.563355,0,392.8,392,20,40, ,392,87.5077
78.3333,2.561806,0,396.72,395.92,20,40, ,395.92,87.4548
79.1167,2.56,0,400.64,399.85,20,40, ,399.85,87.3932
79.9,2.558194,0,404.55,403.78,20,40, ,403.78,87.3315
80.6833,2.556129,0,408.47,407.7,20,40, ,407.7,87.261
81.4667,2.553548,0,412.39,411.63,20,40, ,411.63,87.1729
82.25,2.550452,0,416.3,415.56,20,40, ,415.56,87.0672
83.0333,2.546581,0,420.22,419.48,20,40, ,419.48,86.9351
83.8167,2.542194,0,424.14,423.4,20,40, ,423.4,86.7853
84.6,2.53729,0,428.05,427.33,20,40, ,427.33,86.6179
85.3833,2.531355,0,431.97,431.25,20,40, ,431.25,86.4153
86.1667,2.524129,0,435.89,435.18,20,40, ,435.18,86.1686
86.95,2.515613,0,439.8,439.1,20,40, ,439.1,85.8779
87.7333,2.505548,0,443.72,443.03,20,40, ,443.03,85.5343
88.5167,2.494194,0,447.64,446.96,20,40, ,446.96,85.1467
89.3,2.480516,0,451.55,450.89,20,40, ,450.89,84.6798
90.0833,2.464774,0,455.47,454.81,20,40, ,454.81,84.1424
90.8667,2.44671,0,459.39,458.73,20,40, ,458.73,83.5257
91.65,2.427097,0,463.3,462.66,20,40, ,462.66,82.8562
92.4333,2.405935,0,467.22,466.58,20,40, ,466.58,82.1337
93.2167,2.383226,0,471.14,470.51,20,40, ,470.51,81.3585
94,2.359484,0,475.05,474.44,20,40, ,474.44,80.548
94.7833,2.334452,0,478.97,478.36,20,40, ,478.36,79.6934
95.5667,2.308129,0,482.89,482.28,20,40, ,482.28,78.7948
96.35,2.280258,0,486.8,486.22,20,40, ,486.22,77.8434
97.1333,2.250065,0,490.72,490.13,20,40, ,490.13,76.8126
97.9167,2.21729,0,494.64,494.06,20,40, ,494.06,75.6938
98.7,2.181161,0,498.55,498,20,40, ,498,74.4604
99.4833,2.141419,0,502.47,501.91,20,40, ,501.91,73.1037
100.267,2.09729,0,506.39,505.85,20,40, ,505.85,71.5972
101.05,2.048258,0,510.3,509.77,20,40, ,509.77,69.9234
101.833,1.993806,0,514.22,513.69,20,40, ,513.69,68.0645
102.617,1.930839,0,518.14,517.61,20,40, ,517.61,65.9149
103.4,1.861935,0,522.05,521.54,20,40, ,521.54,63.5627
104.183,1.784774,0,525.97,525.47,20,40, ,525.47,60.9286
104.967,1.699097,0,529.89,529.4,20,40, ,529.4,58.0037
105.75,1.605677,0,533.8,533.31,20,40, ,533.31,54.8145
106.533,1.506065,0,537.72,537.25,20,40, ,537.25,51.414
107.317,1.400258,0,541.64,541.16,20,40, ,541.16,47.802
108.1,1.292129,0,545.55,545.09,20,40, ,545.09,44.1107
108.883,1.183226,0,549.47,549.03,20,40, ,549.03,40.3929
109.667,1.076903,0,553.39,552.94,20,40, ,552.94,36.7633
110.45,0.975226,0,557.3,556.86,20,40, ,556.86,33.2922
111.233,0.88,0,561.22,560.8,20,40, ,560.8,30.0414
112.017,0.794065,0,565.14,564.72,20,40, ,564.72,27.1078
112.8,0.717677,0,569.05,568.65,20,40, ,568.65,24.5
113.583,0.649806,0,572.97,572.56,20,40, ,572.56,22.1831
114.367,0.592258,0,576.89,576.5,20,40, ,576.5,20.2185
115.15,0.543226,0,580.8,580.42,20,40, ,580.42,18.5446
115.933,0.50271,0,584.72,584.33,20,40, ,584.33,17.1615
116.717,0.47071,0,588.64,588.27,20,40, ,588.27,16.0691
117.5,0.444903,0,592.55,592.19,20,40, ,592.19,15.1881
118.283,0.424516,0,596.47,596.12,20,40, ,596.12,14.4921
119.067,0.408774,0,600.39,600.05,20,40, ,600.05,13.9547
119.85,0.396903,0,604.3,603.97,20,40, ,603.97,13.5495
120.633,0.387613,0,608.22,607.9,20,40, ,607.9,13.2323
121.417,0.380387,0,612.14,611.82,20,40, ,611.82,12.9856
122.2,0.375226,0,616.05,615.73,20,40, ,615.73,12.8095
122.983,0.371097,0,619.97,619.68,20,40, ,619.68,12.6685
123.767,0.368516,0,623.89,623.6,20,40, ,623.6,12.5804
124.55,0.366968,0,627.8,627.55,20,40, ,627.55,12.5275
125.333,0.365419,0,631.72,636.26,20,40, ,636.26,12.4747
126.117,0.364129,0,635.64,573.55,20,40, ,573.55,12.4306
126.9,0.363613,0,639.55,638.57,19.9,40, ,638.57,12.413
127.683,0.363355,0,643.47,654.18,20,40, ,654.18,12.4042
128.467,0.363097,0,647.39,654.9,20,40, ,654.9,12.3954
129.25,0.362839,0,651.3,563.02,20,40, ,563.02,12.3866
130.033,0.362839,0,655.22,657.97,20,40, ,657.97,12.3866
130.817,0.362839,0,659.14,670.72,20,40, ,670.72,12.3866
131.6,0.362581,0,663.05,675.15,20,40, ,675.15,12.3778
132.383,0.362581,0,666.97,679.58,20,40, ,679.58,12.3778
133.167,0.362839,0,670.89,683.85,20,40, ,683.85,12.3866
133.95,0.362839,0,674.8,687.73,20,40, ,687.73,12.3866
134.733,0.362581,0,678.72,677.15,19.9,40, ,677.15,12.3778
135.517,0.362839,0,682.64,688.07,20,40, ,688.07,12.3866
136.3,0.362839,0,686.55,701.96,20,40, ,701.96,12.3866
137.083,0.363871,0,690.47,692.52,20,40, ,692.52,12.4218
137.867,0.363097,0,694.39,709.5,20,40, ,709.5,12.3954
138.65,0.363355,0,698.3,712.91,20,40, ,712.91,12.4042
139.433,0.363355,0,700,684.27,20,40, ,684.27,12.4042
140.217,0.363871,0,700,697.11,20,40, ,697.11,12.4218
141,0.364129,0,700,693.9,20,40, ,693.9,12.4306
141.783,0.364129,0,700,698.07,20,40, ,698.07,12.4306
142.567,0.364645,0,700,659.64,20,40, ,659.64,12.4482
143.35,0.364645,0,700,693.52,20,40, ,693.52,12.4482
143.933,0.365161,0,700,648.8,20,40, ,648.8,12.4659